Folder: space-trash-hack/datasets/zenodo

Note: datasets/README.md
# NASA reference datasets

This directory now contains processed NASA reference tables that can be merged
into `rexai_nasa_waste_features.csv` via the helper
`app.modules.generator._merge_reference_dataset`. The original spreadsheet style
exports that used text ranges have been archived under `datasets/raw/` with a
`*_raw.csv` suffix so the preprocessing can be reproduced.

## Source material

| Processed file | NASA reference | Notes |
| -------------- | -------------- | ----- |
| `nasa_waste_summary.csv` | Logistics Reduction & Repurposing (LRR) – Logistics-to-Living Phase I/II non-metabolic waste inventory | Ranges such as `15-58 kg` are converted to numeric midpoints and mapped onto the canonical waste categories used by the demo (e.g. Foam Packaging → `Zotek F30`). |
| `nasa_waste_processing_products.csv` | LRR Trash-to-Gas architecture study | Provides propellant and water yields for the Trash-to-Gas (TtG) and Trash-to-Supply-Gas (TtSG) flows. |
| `nasa_leo_mass_savings.csv` | LRR delivery trade study for TtG/TtSG logistics | Captures chemical vs. solar-electric propulsion savings and their gear ratios. |
| `nasa_propellant_benefits.csv` | LRR mission delta-V budget summary | Lists vehicle concepts and the propellant required to exploit trash-derived propellants. |
| `l2l_parameters.csv` | NASA/TM-2021002072 "Logistics to Living" appendix A1b | Bag geometries, volumetric ratios, and other Logistics-to-Living constants; the `feature` column mirrors the terminology used in the report. |

The raw CSVs under `datasets/raw/` contain the literal values transcribed from
the NASA PDFs and slide decks so the preprocessing logic below remains
reproducible.

## Regeneration steps

Use the following Python snippet to rebuild the processed CSVs from the raw
inputs. It converts textual ranges (e.g. `15-58`) to numeric midpoints, sums
multi-mission totals, and exposes the NASA identifiers as the `category`/
`subitem` join keys expected by `_merge_reference_dataset`.

```python
from pathlib import Path
import pandas as pd
import polars as pl
import re

RAW_DIR = Path("datasets/raw")
OUT_DIR = Path("datasets")


def parse_numeric(value: object) -> float | None:
    if value is None or value != value:  # handles None and NaN
        return None
    if isinstance(value, (int, float)):
        return float(value)
    text = str(value).strip().replace(",", "")
    if not text:
        return None
    numbers = [abs(float(match)) for match in re.findall(r"[-+]?[0-9]*\.?[0-9]+", text)]
    if "-" in text and len(numbers) >= 2:
        return sum(numbers[:2]) / 2.0
    if "+" in text and len(numbers) >= 2:
        return sum(numbers)
    return numbers[0] if numbers else None

# Waste summary: map known waste types to canonical categories/subitems and
# compute mission totals.
summary_map = {
    "Clothing": ("Fabrics", "Clothing"),
    "Wipes/Tissues": ("Fabrics", "Cleaning Wipes"),
    "Towels and Hygiene": ("Fabrics", "Towels/Wash Cloths"),
    "Foam Packaging 

File: pvdf_ftir_phases_1um_160C.csv
wavenumber_cm_1,absorbance_norm_1um,phase,temperature_C,material,source,license
3996.29,0.000143536,alpha,160,PVDF,Mendeley Data: 10.17632/sfbpt6sjb3.1,CC BY 4.0
3994.36,0.000125432,alpha,160,PVDF,Mendeley Data: 10.17632/sfbpt6sjb3.1,CC BY 4.0
3992.43,0.000101551,alpha,160,PVDF,Mendeley Data: 10.17632/sfbpt6sjb3.1,CC BY 4.0
3990.5,6.90758e-05,alpha,160,PVDF,Mendeley Data: 10.17632/sfbpt6sjb3.1,CC BY 4.0
3988.57,1.98788e-05,alpha,160,PVDF,Mendeley Data: 10.17632/sfbpt6sjb3.1,CC BY 4.0
3986.64,-3.50374e-05,alpha,160,PVDF,Mendeley Data: 10.17632/sfbpt6sjb3.1,CC BY 4.0
3984.72,-8.39193e-05,alpha,160,PVDF,Mendeley Data: 10.17632/sfbpt6sjb3.1,CC BY 4.0
3982.79,-0.000109409,alpha,160,PVDF,Mendeley Data: 10.17632/sfbpt6sjb3.1,CC BY 4.0
3980.86,-0.000112113,alpha,160,PVDF,Mendeley Data: 10.17632/sfbpt6sjb3.1,CC BY 4.0
3978.93,-0.000103334,alpha,160,PVDF,Mendeley Data: 10.17632/sfbpt6sjb3.1,CC BY 4.0
3977,-9.34482e-05,alpha,160,PVDF,Mendeley Data: 10.17632/sfbpt6sjb3.1,CC BY 4.0
3975.07,-8.74102e-05,alpha,160,PVDF,Mendeley Data: 10.17632/sfbpt6sjb3.1,CC BY 4.0
3973.14,-7.67707e-05,alpha,160,PVDF,Mendeley Data: 10.17632/sfbpt6sjb3.1,CC BY 4.0
3971.21,-5.82773e-05,alpha,160,PVDF,Mendeley Data: 10.17632/sfbpt6sjb3.1,CC BY 4.0
3969.29,-3.56615e-05,alpha,160,PVDF,Mendeley Data: 10.17632/sfbpt6sjb3.1,CC BY 4.0
3967.36,-1.44458e-05,alpha,160,PVDF,Mendeley Data: 10.17632/sfbpt6sjb3.1,CC BY 4.0
3965.43,3.24793e-06,alpha,160,PVDF,Mendeley Data: 10.17632/sfbpt6sjb3.1,CC BY 4.0
3963.5,1.79012e-05,alpha,160,PVDF,Mendeley Data: 10.17632/sfbpt6sjb3.1,CC BY 4.0
3961.57,3.08964e-05,alpha,160,PVDF,Mendeley Data: 10.17632/sfbpt6sjb3.1,CC BY 4.0
3959.64,3.942e-05,alpha,160,PVDF,Mendeley Data: 10.17632/sfbpt6sjb3.1,CC BY 4.0
3957.71,4.3566e-05,alpha,160,PVDF,Mendeley Data: 10.17632/sfbpt6sjb3.1,CC BY 4.0
3955.78,3.32323e-05,alpha,160,PVDF,Mendeley Data: 10.17632/sfbpt6sjb3.1,CC BY 4.0
3953.86,1.21469e-05,alpha,160,PVDF,Mendeley Data: 10.17632/sfbpt6sjb3.1,CC BY 4.0
3951.93,-1.04723e-05,alpha,160,PVDF,Mendeley Data: 10.17632/sfbpt6sjb3.1,CC BY 4.0
3950,-2.29858e-05,alpha,160,PVDF,Mendeley Data: 10.17632/sfbpt6sjb3.1,CC BY 4.0
3948.07,-2.96777e-05,alpha,160,PVDF,Mendeley Data: 10.17632/sfbpt6sjb3.1,CC BY 4.0
3946.14,-3.19205e-05,alpha,160,PVDF,Mendeley Data: 10.17632/sfbpt6sjb3.1,CC BY 4.0
3944.21,-2.53591e-05,alpha,160,PVDF,Mendeley Data: 10.17632/sfbpt6sjb3.1,CC BY 4.0
3942.28,0.0,alpha,160,PVDF,Mendeley Data: 10.17632/sfbpt6sjb3.1,CC BY 4.0
3940.35,4.37392e-05,alpha,160,PVDF,Mendeley Data: 10.17632/sfbpt6sjb3.1,CC BY 4.0
3938.43,8.67383e-05,alpha,160,PVDF,Mendeley Data: 10.17632/sfbpt6sjb3.1,CC BY 4.0
3936.5,9.86731e-05,alpha,160,PVDF,Mendeley Data: 10.17632/sfbpt6sjb3.1,CC BY 4.0
3934.57,7.67239e-05,alpha,160,PVDF,Mendeley Data: 10.17632/sfbpt6sjb3.1,CC BY 4.0
3932.64,4.17846e-05,alpha,160,PVDF,Mendeley Data: 10.17632/sfbpt6sjb3.1,CC BY 4.0
3930.71,2.08023e-05,alpha,160,PVDF,Mendeley Data: 10.17632/sfbpt6sjb3.1,CC BY 4.0
3928.78,2.64421e-05,alpha,160,PVDF,Mendeley Data: 10.17632/sfbpt6sjb3.1,CC BY 4.0
3926.85,5.42659e-05,alpha,160,PVDF,Mendeley Data: 10.17632/sfbpt6sjb3.1,CC BY 4.0
3924.93,8.83118e-05,alpha,160,PVDF,Mendeley Data: 10.17632/sfbpt6sjb3.1,CC BY 4.0
3923,0.000121971,alpha,160,PVDF,Mendeley Data: 10.17632/sfbpt6sjb3.1,CC BY 4.0
3921.07,0.000158791,alpha,160,PVDF,Mendeley Data: 10.17632/sfbpt6sjb3.1,CC BY 4.0
3919.14,0.000210954,alpha,160,PVDF,Mendeley Data: 10.17632/sfbpt6sjb3.1,CC BY 4.0
3917.21,0.000294056,alpha,160,PVDF,Mendeley Data: 10.17632/sfbpt6sjb3.1,CC BY 4.0
3915.28,0.000412164,alpha,160,PVDF,Mendeley Data: 10.17632/sfbpt6sjb3.1,CC BY 4.0
3913.35,0.000537843,alpha,160,PVDF,Mendeley Data: 10.17632/sfbpt6sjb3.1,CC BY 4.0
3911.42,0.000625984,alpha,160,PVDF,Mendeley Data: 10.17632/sfbpt6sjb3.1,CC BY 4.0
3909.5,0.000647881,alpha,160,PVDF,Mendeley Data: 10.17632/sfbpt6sjb3.1,CC BY 4.0
3907.57,0.000603191,alpha,160,PVDF,Mendeley Data: 10.17632/sfbpt6sjb3.1,CC BY 4.0
3905.64,0.00052514,alpha,160,PVDF,Mendeley Data: 10.17632/sfbpt6sjb3.1,CC BY 4.0
3903.71,0.000463185,alpha,160,PVDF,Mendeley Data: 10.17632/sfbpt6sjb3.1,CC BY 4.0
3901.78,0.000459731,alpha,160,PVDF,Mendeley Data: 10.17632/sfbpt6sjb3.1,CC BY 4.0
3899.85,0.000507983,alpha,160,PVDF,Mendeley Data: 10.17632/sfbpt6sjb3.1,CC BY 4.0
3897.92,0.000560716,alpha,160,PVDF,Mendeley Data: 10.17632/sfbpt6sjb3.1,CC BY 4.0
3895.99,0.000577379,alpha,160,PVDF,Mendeley Data: 10.17632/sfbpt6sjb3.1,CC BY 4.0
3894.07,0.000547234,alpha,160,PVDF,Mendeley Data: 10.17632/sfbpt6sjb3.1,CC BY 4.0
3892.14,0.000480589,alpha,160,PVDF,Mendeley Data: 10.17632/sfbpt6sjb3.1,CC BY 4.0
3890.21,0.000387206,alpha,160,PVDF,Mendeley Data: 10.17632/sfbpt6sjb3.1,CC BY 4.0
3888.28,0.000286271,alpha,160,PVDF,Mendeley Data: 10.17632/sfbpt6sjb3.1,CC BY 4.0
3886.35,0.00019787,alpha,160,PVDF,Mendeley Data: 10.17632/sfbpt6sjb3.1,CC BY 4.0
3884.42,0.000144295,alpha,160,PVDF,Mendeley Data: 10.17632/sfbpt6sjb3.1,CC BY 4.0
3882.49,0.000133039,alpha,160,PVDF,Mendeley Data: 10.17632/sfbpt6sjb3.1,CC BY 4.0
3880.56,0.000161095,alpha,160,PVDF,Mendeley Data: 10.17632/sfbpt6sjb3.1,CC BY 4.0
3878.64,0.000200361,alpha,160,PVDF,Mendeley Data: 10.17632/sfbpt6sjb3.1,CC BY 4.0
3876.71,0.000231286,alpha,160,PVDF,Mendeley Data: 10.17632/sfbpt6sjb3.1,CC BY 4.0
3874.78,0.000235959,alpha,160,PVDF,Mendeley Data: 10.17632/sfbpt6sjb3.1,CC BY 4.0
3872.85,0.000209608,alpha,160,PVDF,Mendeley Data: 10.17632/sfbpt6sjb3.1,CC BY 4.0
3870.92,0.000176701,alpha,160,PVDF,Mendeley Data: 10.17632/sfbpt6sjb3.1,CC BY 4.0
3868.99,0.000170699,alpha,160,PVDF,Mendeley Data: 10.17632/sfbpt6sjb3.1,CC BY 4.0
3867.06,0.000208518,alpha,160,PVDF,Mendeley Data: 10.17632/sfbpt6sjb3.1,CC BY 4.0
3865.14,0.000275567,alpha,160,PVDF,Mendeley Data: 10.17632/sfbpt6sjb3.1,CC BY 4.0
3863.21,0.000340633,alpha,160,PVDF,Mendeley Data: 10.17632/sfbpt6sjb3.1,CC BY 4.0
3861.28,0.000370559,alpha,160,PVDF,Mendeley Data: 10.17632/sfbpt6sjb3.1,CC BY 4.0
3859.35,0.000356028,alpha,160,PVDF,Mendeley Data: 10.17632/sfbpt6sjb3.1,CC BY 4.0
3857.42,0.0003006,alpha,160,PVDF,Mendeley Data: 10.17632/sfbpt6sjb3.1,CC BY 4.0
3855.49,0.000225934,alpha,160,PVDF,Mendeley Data: 10.17632/sfbpt6sjb3.1,CC BY 4.0
3853.56,0.000162544,alpha,160,PVDF,Mendeley Data: 10.17632/sfbpt6sjb3.1,CC BY 4.0
3851.63,0.000144724,alpha,160,PVDF,Mendeley Data: 10.17632/sfbpt6sjb3.1,CC BY 4.0
3849.71,0.000185818,alpha,160,PVDF,Mendeley Data: 10.17632/sfbpt6sjb3.1,CC BY 4.0
3847.78,0.000236324,alpha,160,PVDF,Mendeley Data: 10.17632/sfbpt6sjb3.1,CC BY 4.0
3845.85,0.000230761,alpha,160,PVDF,Mendeley Data: 10.17632/sfbpt6sjb3.1,CC BY 4.0
3843.92,0.000141216,alpha,160,PVDF,Mendeley Data: 10.17632/sfbpt6sjb3.1,CC BY 4.0
3841.99,-8.92336e-07,alpha,160,PVDF,Mendeley Data: 10.17632/sfbpt6sjb3.1,CC BY 4.0
3840.06,-0.000132202,alpha,160,PVDF,Mendeley Data: 10.17632/sfbpt6sjb3.1,CC BY 4.0
3838.13,-0.000201434,alpha,160,PVDF,Mendeley Data: 10.17632/sfbpt6sjb3.1,CC BY 4.0
3836.2,-0.000196455,alpha,160,PVDF,Mendeley Data: 10.17632/sfbpt6sjb3.1,CC BY 4.0
3834.28,-0.000137789,alpha,160,PVDF,Mendeley Data: 10.17632/sfbpt6sjb3.1,CC BY 4.0
3832.35,-6.06072e-05,alpha,160,PVDF,Mendeley Data: 10.17632/sfbpt6sjb3.1,CC BY 4.0
3830.42,0.0,alpha,160,PVDF,Mendeley Data: 10.17632/sfbpt6sjb3.1,CC BY 4.0
3828.49,3.76079e-05,alpha,160,PVDF,Mendeley Data: 10.17632/sfbpt6sjb3.1,CC BY 4.0
3826.56,1.56377e-05,alpha,160,PVDF,Mendeley Data: 10.17632/sfbpt6sjb3.1,CC BY 4.0
3824.63,-6.44621e-05,alpha,160,PVDF,Mendeley Data: 10.17632/sfbpt6sjb3.1,CC BY 4.0
3822.7,-0.000163819,alpha,160,PVDF,Mendeley Data: 10.17632/sfbpt6sjb3.1,CC BY 4.0
3820.77,-0.000239509,alpha,160,PVDF,Mendeley Data: 10.17632/sfbpt6sjb3.1,CC BY 4.0
3818.85,-0.000244422,alpha,160,PVDF,Mendeley Data: 10.17632/sfbpt6sjb3.1,CC BY 4.0
3816.92,-0.000165906,alpha,160,PVDF,Mendeley Data: 10.17632/sfbpt6sjb3.1,CC BY 4.0
3814.99,-5.05322e-05,alpha,160,PVDF,Mendeley Data: 10.17632/sfbpt6sjb3.1,CC BY 4.0
3813.06,5.1436e-05,alpha,160,PVDF,Mendeley Data: 10.17632/sfbpt6sjb3.1,CC BY 4.0
3811.13,9.71983e-05,alpha,160,PVDF,Mendeley Data: 10.17632/sfbpt6sjb3.1,CC BY 4.0
3809.2,7.48789e-05,alpha,160,PVDF,Mendeley Data: 10.17632/sfbpt6sjb3.1,CC BY 4.0
3807.27,-8.23726e-06,alpha,160,PVDF,Mendeley Data: 10.17632/sfbpt6sjb3.1,CC BY 4.0
3805.35,-0.000122021,alpha,160,PVDF,Mendeley Data: 10.17632/sfbpt6sjb3.1,CC BY 4.0
3803.42,-0.000220041,alpha,160,PVDF,Mendeley Data: 10.17632/sfbpt6sjb3.1,CC BY 4.0
3801.49,-0.000270492,alpha,160,PVDF,Mendeley Data: 10.17632/sfbpt6sjb3.1,CC BY 4.0
3799.56,-0.000262314,alpha,160,PVDF,Mendeley Data: 10.17632/sfbpt6sjb3.1,CC BY 4.0
3797.63,-0.000189492,alpha,160,PVDF,Mendeley Data: 10.17632/sfbpt6sjb3.1,CC BY 4.0
3795.7,-7.88164e-05,alpha,160,PVDF,Mendeley Data: 10.17632/sfbpt6sjb3.1,CC BY 4.0
3793.77,2.54273e-05,alpha,160,PVDF,Mendeley Data: 10.17632/sfbpt6sjb3.1,CC BY 4.0
3791.84,9.61754e-05,alpha,160,PVDF,Mendeley Data: 10.17632/sfbpt6sjb3.1,CC BY 4.0
3789.92,0.000117478,alpha,160,PVDF,Mendeley Data: 10.17632/sfbpt6sjb3.1,CC BY 4.0
3787.99,9.40868e-05,alpha,160,PVDF,Mendeley Data: 10.17632/sfbpt6sjb3.1,CC BY 4.0
3786.06,4.78738e-05,alpha,160,PVDF,Mendeley Data: 10.17632/sfbpt6sjb3.1,CC BY 4.0
3784.13,4.56126e-07,alpha,160,PVDF,Mendeley Data: 10.17632/sfbpt6sjb3.1,CC BY 4.0
3782.2,-2.53482e-05,alpha,160,PVDF,Mendeley Data: 10.17632/sfbpt6sjb3.1,CC BY 4.0
3780.27,-2.63936e-05,alpha,160,PVDF,Mendeley Data: 10.17632/sfbpt6sjb3.1,CC BY 4.0
3778.34,-1.0577e-05,alpha,160,PVDF,Mendeley Data: 10.17632/sfbpt6sjb3.1,CC BY 4.0
3776.41,6.05201e-06,alpha,160,PVDF,Mendeley Data: 10.17632/sfbpt6sjb3.1,CC BY 4.0
3774.49,0.0,alpha,160,PVDF,Mendeley Data: 10.17632/sfbpt6sjb3.1,CC BY 4.0
3772.56,-5.05148e-05,alpha,160,PVDF,Mendeley Data: 10.17632/sfbpt6sjb3.1,CC BY 4.0
3770.63,-0.000134217,alpha,160,PVDF,Mendeley Data: 10.17632/sfbpt6sjb3.1,CC BY 4.0
3768.7,-0.000224158,alpha,160,PVDF,Mendeley Data: 10.17632/sfbpt6sjb3.1,CC BY 4.0
3766.77,-0.000287959,alpha,160,PVDF,Mendeley Data: 10.17632/sfbpt6sjb3.1,CC BY 4.0
3764.84,-0.000325468,alpha,160,PVDF,Mendeley Data: 10.17632/sfbpt6sjb3.1,CC BY 4.0
3762.91,-0.000359077,alpha,160,PVDF,Mendeley Data: 10.17632/sfbpt6sjb3.1,CC BY 4.0
3760.98,-0.000406986,alpha,160,PVDF,Mendeley Data: 10.17632/sfbpt6sjb3.1,CC BY 4.0
3759.06,-0.000476194,alpha,160,PVDF,Mendeley Data: 10.17632/sfbpt6sjb3.1,CC BY 4.0
3757.13,-0.000570032,alpha,160,PVDF,Mendeley Data: 10.17632/sfbpt6sjb3.1,CC BY 4.0
3755.2,-0.00068701,alpha,160,PVDF,Mendeley Data: 10.17632/sfbpt6sjb3.1,CC BY 4.0
3753.27,-0.000829479,alpha,160,PVDF,Mendeley Data: 10.17632/sfbpt6sjb3.1,CC BY 4.0
3751.34,-0.000977681,alpha,160,PVDF,Mendeley Data: 10.17632/sfbpt6sjb3.1,CC BY 4.0
3749.41,-0.00108869,alpha,160,PVDF,Mendeley Data: 10.17632/sfbpt6sjb3.1,CC BY 4.0
3747.48,-0.00111456,alpha,160,PVDF,Mendeley Data: 10.17632/sfbpt6sjb3.1,CC BY 4.0
3745.56,-0.00105064,alpha,160,PVDF,Mendeley Data: 10.17632/sfbpt6sjb3.1,CC BY 4.0
3743.63,-0.000942009,alpha,160,PVDF,Mendeley Data: 10.17632/sfbpt6sjb3.1,CC BY 4.0
3741.7,-0.000826411,alpha,160,PVDF,Mendeley Data: 10.17632/sfbpt6sjb3.1,CC BY 4.0
3739.77,-0.000743475,alpha,160,PVDF,Mendeley Data: 10.17632/sfbpt6sjb3.1,CC BY 4.0
3737.84,-0.000703043,alpha,160,PVDF,Mendeley Data: 10.17632/sfbpt6sjb3.1,CC BY 4.0
3735.91,-0.00067586,alpha,160,PVDF,Mendeley Data: 10.17632/sfbpt6sjb3.1,CC BY 4.0
3733.98,-0.000605879,alpha,160,PVDF,Mendeley Data: 10.17632/sfbpt6sjb3.1,CC BY 4.0
3732.05,-0.000471713,alpha,160,PVDF,Mendeley Data: 10.17632/sfbpt6sjb3.1,CC BY 4.0
3730.13,-0.000316907,alpha,160,PVDF,Mendeley Data: 10.17632/sfbpt6sjb3.1,CC BY 4.0
3728.2,-0.000194857,alpha,160,PVDF,Mendeley Data: 10.17632/sfbpt6sjb3.1,CC BY 4.0
3726.27,-0.000124299,alpha,160,PVDF,Mendeley Data: 10.17632/sfbpt6sjb3.1,CC BY 4.0
3724.34,-9.64901e-05,alpha,160,PVDF,Mendeley Data: 10.17632/sfbpt6sjb3.1,CC BY 4.0
3722.41,-8.93207e-05,alpha,160,PVDF,Mendeley Data: 10.17632/sfbpt6sjb3.1,CC BY 4.0
3720.48,-0.000101517,alpha,160,PVDF,Mendeley Data: 10.17632/sfbpt6sjb3.1,CC BY 4.0
3718.55,-0.000135194,alpha,160,PVDF,Mendeley Data: 10.17632/sfbpt6sjb3.1,CC BY 4.0
3716.62,-0.000198678,alpha,160,PVDF,Mendeley Data: 10.17632/sfbpt6sjb3.1,CC BY 4.0
3714.7,-0.000259346,alpha,160,PVDF,Mendeley Data: 10.17632/sfbpt6sjb3.1,CC BY 4.0
3712.77,-0.000291332,alpha,160,PVDF,Mendeley Data: 10.17632/sfbpt6sjb3.1,CC BY 4.0
3710.84,-0.000263354,alpha,160,PVDF,Mendeley Data: 10.17632/sfbpt6sjb3.1,CC BY 4.0
3708.91,-0.000167901,alpha,160,PVDF,Mendeley Data: 10.17632/sfbpt6sjb3.1,CC BY 4.0
3706.98,-3.54154e-05,alpha,160,PVDF,Mendeley Data: 10.17632/sfbpt6sjb3.1,CC BY 4.0
3705.05,9.07036e-05,alpha,160,PVDF,Mendeley Data: 10.17632/sfbpt6sjb3.1,CC BY 4.0
3703.12,0.000175845,alpha,160,PVDF,Mendeley Data: 10.17632/sfbpt6sjb3.1,CC BY 4.0
3701.19,0.000217216,alpha,160,PVDF,Mendeley Data: 10.17632/sfbpt6sjb3.1,CC BY 4.0
3699.27,0.000229117,alpha,160,PVDF,Mendeley Data: 10.17632/sfbpt6sjb3.1,CC BY 4.0
3697.34,0.000205305,alpha,160,PVDF,Mendeley Data: 10.17632/sfbpt6sjb3.1,CC BY 4.0
3695.41,0.000130923,alpha,160,PVDF,Mendeley Data: 10.17632/sfbpt6sjb3.1,CC BY 4.0
3693.48,1.76563e-05,alpha,160,PVDF,Mendeley Data: 10.17632/sfbpt6sjb3.1,CC BY 4.0
3691.55,-9.2785e-05,alpha,160,PVDF,Mendeley Data: 10.17632/sfbpt6sjb3.1,CC BY 4.0
3689.62,-0.000144952,alpha,160,PVDF,Mendeley Data: 10.17632/sfbpt6sjb3.1,CC BY 4.0
3687.69,-0.000112916,alpha,160,PVDF,Mendeley Data: 10.17632/sfbpt6sjb3.1,CC BY 4.0
3685.77,-2.34154e-05,alpha,160,PVDF,Mendeley Data: 10.17632/sfbpt6sjb3.1,CC BY 4.0
3683.84,6.20149e-05,alpha,160,PVDF,Mendeley Data: 10.17632/sfbpt6sjb3.1,CC BY 4.0
3681.91,8.86468e-05,alpha,160,PVDF,Mendeley Data: 10.17632/sfbpt6sjb3.1,CC BY 4.0
3679.98,3.04128e-05,alpha,160,PVDF,Mendeley Data: 10.17632/sfbpt6sjb3.1,CC BY 4.0
3678.05,-8.91331e-05,alpha,160,PVDF,Mendeley Data: 10.17632/sfbpt6sjb3.1,CC BY 4.0
3676.12,-0.000217497,alpha,160,PVDF,Mendeley Data: 10.17632/sfbpt6sjb3.1,CC BY 4.0
3674.19,-0.000291291,alpha,160,PVDF,Mendeley Data: 10.17632/sfbpt6sjb3.1,CC BY 4.0
3672.26,-0.00025902,alpha,160,PVDF,Mendeley Data: 10.17632/sfbpt6sjb3.1,CC BY 4.0
3670.34,-0.0001155,alpha,160,PVDF,Mendeley Data: 10.17632/sfbpt6sjb3.1,CC BY 4.0
3668.41,1.64467e-05,alpha,160,PVDF,Mendeley Data: 10.17632/sfbpt6sjb3.1,CC BY 4.0
3666.48,0.000163963,alpha,160,PVDF,Mendeley Data: 10.17632/sfbpt6sjb3.1,CC BY 4.0
3664.55,0.000290379,alpha,160,PVDF,Mendeley Data: 10.17632/sfbpt6sjb3.1,CC BY 4.0
3662.62,0.000359541,alpha,160,PVDF,Mendeley Data: 10.17632/sfbpt6sjb3.1,CC BY 4.0
3660.69,0.000334462,alpha,160,PVDF,Mendeley Data: 10.17632/sfbpt6sjb3.1,CC BY 4.0
3658.76,0.000243943,alpha,160,PVDF,Mendeley Data: 10.17632/sfbpt6sjb3.1,CC BY 4.0
3656.83,9.78325e-05,alpha,160,PVDF,Mendeley Data: 10.17632/sfbpt6sjb3.1,CC BY 4.0
3654.91,-9.31603e-05,alpha,160,PVDF,Mendeley Data: 10.17632/sfbpt6sjb3.1,CC BY 4.0
3652.98,-0.00029954,alpha,160,PVDF,Mendeley Data: 10.17632/sfbpt6sjb3.1,CC BY 4.0
3651.05,-0.000476823,alpha,160,PVDF,Mendeley Data: 10.17632/sfbpt6sjb3.1,CC BY 4.0
3649.12,-0.000564815,alpha,160,PVDF,Mendeley Data: 10.17632/sfbpt6sjb3.1,CC BY 4.0
3647.19,-0.000511473,alpha,160,PVDF,Mendeley Data: 10.17632/sfbpt6sjb3.1,CC BY 4.0
3645.26,-0.000339762,alpha,160,PVDF,Mendeley Data: 10.17632/sfbpt6sjb3.1,CC BY 4.0
3643.33,-0.00012489,alpha,160,PVDF,Mendeley Data: 10.17632/sfbpt6sjb3.1,CC BY 4.0
3641.4,5.72226e-05,alpha,160,PVDF,Mendeley Data: 10.17632/sfbpt6sjb3.1,CC BY 4.0
3639.48,0.000168992,alpha,160,PVDF,Mendeley Data: 10.17632/sfbpt6sjb3.1,CC BY 4.0
3637.55,0.000201521,alpha,160,PVDF,Mendeley Data: 10.17632/sfbpt6sjb3.1,CC BY 4.0
3635.62,0.000172087,alpha,160,PVDF,Mendeley Data: 10.17632/sfbpt6sjb3.1,CC BY 4.0
3633.69,0.00010301,alpha,160,PVDF,Mendeley Data: 10.17632/sfbpt6sjb3.1,CC BY 4.0
3631.76,3.37259e-05,alpha,160,PVDF,Mendeley Data: 10.17632/sfbpt6sjb3.1,CC BY 4.0
3629.83,-1.3852e-06,alpha,160,PVDF,Mendeley Data: 10.17632/sfbpt6sjb3.1,CC BY 4.0
3627.9,1.43513e-05,alpha,160,PVDF,Mendeley Data: 10.17632/sfbpt6sjb3.1,CC BY 4.0
3625.98,6.38426e-05,alpha,160,PVDF,Mendeley Data: 10.17632/sfbpt6sjb3.1,CC BY 4.0
3624.05,0.000114824,alpha,160,PVDF,Mendeley Data: 10.17632/sfbpt6sjb3.1,CC BY 4.0
3622.12,0.000115465,alpha,160,PVDF,Mendeley Data: 10.17632/sfbpt6sjb3.1,CC BY 4.0
3620.19,5.47534e-05,alpha,160,PVDF,Mendeley Data: 10.17632/sfbpt6sjb3.1,CC BY 4.0
3618.26,-4.13221e-05,alpha,160,PVDF,Mendeley Data: 10.17632/sfbpt6sjb3.1,CC BY 4.0
3616.33,-0.000124069,alpha,160,PVDF,Mendeley Data: 10.17632/sfbpt6sjb3.1,CC BY 4.0
3614.4,-0.00015251,alpha,160,PVDF,Mendeley Data: 10.17632/sfbpt6sjb3.1,CC BY 4.0
3612.47,-0.000126225,alpha,160,PVDF,Mendeley Data: 10.17632/sfbpt6sjb3.1,CC BY 4.0
3610.55,-4.58326e-05,alpha,160,PVDF,Mendeley Data: 10.17632/sfbpt6sjb3.1,CC BY 4.0
3608.62,5.83539e-05,alpha,160,PVDF,Mendeley Data: 10.17632/sfbpt6sjb3.1,CC BY 4.0
3606.69,0.000169591,alpha,160,PVDF,Mendeley Data: 10.17632/sfbpt6sjb3.1,CC BY 4.0
3604.76,0.000234027,alpha,160,PVDF,Mendeley Data: 10.17632/sfbpt6sjb3.1,CC BY 4.0
3602.83,0.000264521,alpha,160,PVDF,Mendeley Data: 10.17632/sfbpt6sjb3.1,CC BY 4.0
3600.9,0.000249418,alpha,160,PVDF,Mendeley Data: 10.17632/sfbpt6sjb3.1,CC BY 4.0
3598.97,0.00020602,alpha,160,PVDF,Mendeley Data: 10.17632/sfbpt6sjb3.1,CC BY 4.0
3597.04,0.000146781,alpha,160,PVDF,Mendeley Data: 10.17632/sfbpt6sjb3.1,CC BY 4.0
3595.12,7.17188e-05,alpha,160,PVDF,Mendeley Data: 10.17632/sfbpt6sjb3.1,CC BY 4.0
3593.19,-2.66559e-05,alpha,160,PVDF,Mendeley Data: 10.17632/sfbpt6sjb3.1,CC BY 4.0
[...]
601.758,-0.00289675,gamma,160,PVDF,Mendeley Data: 10.17632/sfbpt6sjb3.1,CC BY 4.0
599.829,-0.00333859,gamma,160,PVDF,Mendeley Data: 10.17632/sfbpt6sjb3.1,CC BY 4.0
597.9,-0.0036038,gamma,160,PVDF,Mendeley Data: 10.17632/sfbpt6sjb3.1,CC BY 4.0
595.971,-0.00375901,gamma,160,PVDF,Mendeley Data: 10.17632/sfbpt6sjb3.1,CC BY 4.0
594.043,-0.00388569,gamma,160,PVDF,Mendeley Data: 10.17632/sfbpt6sjb3.1,CC BY 4.0
592.114,-0.00398767,gamma,160,PVDF,Mendeley Data: 10.17632/sfbpt6sjb3.1,CC BY 4.0
590.185,-0.00407439,gamma,160,PVDF,Mendeley Data: 10.17632/sfbpt6sjb3.1,CC BY 4.0
588.257,-0.00416325,gamma,160,PVDF,Mendeley Data: 10.17632/sfbpt6sjb3.1,CC BY 4.0
586.3279,-0.00419792,gamma,160,PVDF,Mendeley Data: 10.17632/sfbpt6sjb3.1,CC BY 4.0
584.399,-0.00414166,gamma,160,PVDF,Mendeley Data: 10.17632/sfbpt6sjb3.1,CC BY 4.0
582.47,-0.00403215,gamma,160,PVDF,Mendeley Data: 10.17632/sfbpt6sjb3.1,CC BY 4.0
580.542,-0.00390719,gamma,160,PVDF,Mendeley Data: 10.17632/sfbpt6sjb3.1,CC BY 4.0
578.613,-0.00379171,gamma,160,PVDF,Mendeley Data: 10.17632/sfbpt6sjb3.1,CC BY 4.0
576.684,-0.00372516,gamma,160,PVDF,Mendeley Data: 10.17632/sfbpt6sjb3.1,CC BY 4.0
574.756,-0.00372498,gamma,160,PVDF,Mendeley Data: 10.17632/sfbpt6sjb3.1,CC BY 4.0
572.827,-0.00381791,gamma,160,PVDF,Mendeley Data: 10.17632/sfbpt6sjb3.1,CC BY 4.0
570.898,-0.00402996,gamma,160,PVDF,Mendeley Data: 10.17632/sfbpt6sjb3.1,CC BY 4.0
568.9695,-0.00426086,gamma,160,PVDF,Mendeley Data: 10.17632/sfbpt6sjb3.1,CC BY 4.0
567.041,-0.00435845,gamma,160,PVDF,Mendeley Data: 10.17632/sfbpt6sjb3.1,CC BY 4.0
565.112,-0.00427386,gamma,160,PVDF,Mendeley Data: 10.17632/sfbpt6sjb3.1,CC BY 4.0
563.183,-0.00402519,gamma,160,PVDF,Mendeley Data: 10.17632/sfbpt6sjb3.1,CC BY 4.0
561.255,-0.00360766,gamma,160,PVDF,Mendeley Data: 10.17632/sfbpt6sjb3.1,CC BY 4.0
559.326,-0.00304851,gamma,160,PVDF,Mendeley Data: 10.17632/sfbpt6sjb3.1,CC BY 4.0
557.397,-0.00240449,gamma,160,PVDF,Mendeley Data: 10.17632/sfbpt6sjb3.1,CC BY 4.0
555.469,-0.00172508,gamma,160,PVDF,Mendeley Data: 10.17632/sfbpt6sjb3.1,CC BY 4.0
553.54,-0.00108853,gamma,160,PVDF,Mendeley Data: 10.17632/sfbpt6sjb3.1,CC BY 4.0
551.611,-0.000619391,gamma,160,PVDF,Mendeley Data: 10.17632/sfbpt6sjb3.1,CC BY 4.0
549.6824,-0.000450445,gamma,160,PVDF,Mendeley Data: 10.17632/sfbpt6sjb3.1,CC BY 4.0
547.754,-0.000598635,gamma,160,PVDF,Mendeley Data: 10.17632/sfbpt6sjb3.1,CC BY 4.0
545.825,-0.000895905,gamma,160,PVDF,Mendeley Data: 10.17632/sfbpt6sjb3.1,CC BY 4.0
543.896,-0.00108593,gamma,160,PVDF,Mendeley Data: 10.17632/sfbpt6sjb3.1,CC BY 4.0
541.968,-0.00103299,gamma,160,PVDF,Mendeley Data: 10.17632/sfbpt6sjb3.1,CC BY 4.0
540.039,-0.000767448,gamma,160,PVDF,Mendeley Data: 10.17632/sfbpt6sjb3.1,CC BY 4.0
538.11,-0.000370096,gamma,160,PVDF,Mendeley Data: 10.17632/sfbpt6sjb3.1,CC BY 4.0
536.181,6.85021e-05,gamma,160,PVDF,Mendeley Data: 10.17632/sfbpt6sjb3.1,CC BY 4.0
534.253,0.00047283,gamma,160,PVDF,Mendeley Data: 10.17632/sfbpt6sjb3.1,CC BY 4.0
532.324,0.000915525,gamma,160,PVDF,Mendeley Data: 10.17632/sfbpt6sjb3.1,CC BY 4.0
530.3953,0.00159708,gamma,160,PVDF,Mendeley Data: 10.17632/sfbpt6sjb3.1,CC BY 4.0
528.467,0.00262799,gamma,160,PVDF,Mendeley Data: 10.17632/sfbpt6sjb3.1,CC BY 4.0
526.538,0.00406429,gamma,160,PVDF,Mendeley Data: 10.17632/sfbpt6sjb3.1,CC BY 4.0
524.609,0.00598956,gamma,160,PVDF,Mendeley Data: 10.17632/sfbpt6sjb3.1,CC BY 4.0
522.68,0.00848898,gamma,160,PVDF,Mendeley Data: 10.17632/sfbpt6sjb3.1,CC BY 4.0
520.752,0.0116367,gamma,160,PVDF,Mendeley Data: 10.17632/sfbpt6sjb3.1,CC BY 4.0
518.823,0.0154214,gamma,160,PVDF,Mendeley Data: 10.17632/sfbpt6sjb3.1,CC BY 4.0
516.894,0.019514,gamma,160,PVDF,Mendeley Data: 10.17632/sfbpt6sjb3.1,CC BY 4.0
514.966,0.0230208,gamma,160,PVDF,Mendeley Data: 10.17632/sfbpt6sjb3.1,CC BY 4.0
513.037,0.0243382,gamma,160,PVDF,Mendeley Data: 10.17632/sfbpt6sjb3.1,CC BY 4.0
511.1082,0.0219484,gamma,160,PVDF,Mendeley Data: 10.17632/sfbpt6sjb3.1,CC BY 4.0
509.179,0.0162595,gamma,160,PVDF,Mendeley Data: 10.17632/sfbpt6sjb3.1,CC BY 4.0
507.251,0.00988455,gamma,160,PVDF,Mendeley Data: 10.17632/sfbpt6sjb3.1,CC BY 4.0
505.322,0.00521562,gamma,160,PVDF,Mendeley Data: 10.17632/sfbpt6sjb3.1,CC BY 4.0
503.393,0.00268948,gamma,160,PVDF,Mendeley Data: 10.17632/sfbpt6sjb3.1,CC BY 4.0
501.465,0.00154761,gamma,160,PVDF,Mendeley Data: 10.17632/sfbpt6sjb3.1,CC BY 4.0
499.536,0.00109452,gamma,160,PVDF,Mendeley Data: 10.17632/sfbpt6sjb3.1,CC BY 4.0
497.607,0.00115924,gamma,160,PVDF,Mendeley Data: 10.17632/sfbpt6sjb3.1,CC BY 4.0
495.679,0.00202309,gamma,160,PVDF,Mendeley Data: 10.17632/sfbpt6sjb3.1,CC BY 4.0
493.75,0.00420359,gamma,160,PVDF,Mendeley Data: 10.17632/sfbpt6sjb3.1,CC BY 4.0
491.8211,0.008575,gamma,160,PVDF,Mendeley Data: 10.17632/sfbpt6sjb3.1,CC BY 4.0
489.892,0.0166696,gamma,160,PVDF,Mendeley Data: 10.17632/sfbpt6sjb3.1,CC BY 4.0
487.964,0.0298586,gamma,160,PVDF,Mendeley Data: 10.17632/sfbpt6sjb3.1,CC BY 4.0
486.035,0.0468351,gamma,160,PVDF,Mendeley Data: 10.17632/sfbpt6sjb3.1,CC BY 4.0
484.106,0.0616569,gamma,160,PVDF,Mendeley Data: 10.17632/sfbpt6sjb3.1,CC BY 4.0
482.178,0.0664246,gamma,160,PVDF,Mendeley Data: 10.17632/sfbpt6sjb3.1,CC BY 4.0
480.249,0.058326,gamma,160,PVDF,Mendeley Data: 10.17632/sfbpt6sjb3.1,CC BY 4.0
478.32,0.0422681,gamma,160,PVDF,Mendeley Data: 10.17632/sfbpt6sjb3.1,CC BY 4.0
476.391,0.0255616,gamma,160,PVDF,Mendeley Data: 10.17632/sfbpt6sjb3.1,CC BY 4.0
474.463,0.012613,gamma,160,PVDF,Mendeley Data: 10.17632/sfbpt6sjb3.1,CC BY 4.0
472.534,0.00424569,gamma,160,PVDF,Mendeley Data: 10.17632/sfbpt6sjb3.1,CC BY 4.0
470.605,-0.00045311,gamma,160,PVDF,Mendeley Data: 10.17632/sfbpt6sjb3.1,CC BY 4.0
468.677,-0.00277719,gamma,160,PVDF,Mendeley Data: 10.17632/sfbpt6sjb3.1,CC BY 4.0
466.748,-0.00379777,gamma,160,PVDF,Mendeley Data: 10.17632/sfbpt6sjb3.1,CC BY 4.0
464.819,-0.00412147,gamma,160,PVDF,Mendeley Data: 10.17632/sfbpt6sjb3.1,CC BY 4.0
462.89,-0.00402871,gamma,160,PVDF,Mendeley Data: 10.17632/sfbpt6sjb3.1,CC BY 4.0
460.962,-0.00367863,gamma,160,PVDF,Mendeley Data: 10.17632/sfbpt6sjb3.1,CC BY 4.0
459.033,-0.00322434,gamma,160,PVDF,Mendeley Data: 10.17632/sfbpt6sjb3.1,CC BY 4.0
457.104,-0.00281439,gamma,160,PVDF,Mendeley Data: 10.17632/sfbpt6sjb3.1,CC BY 4.0
455.1756,-0.00244798,gamma,160,PVDF,Mendeley Data: 10.17632/sfbpt6sjb3.1,CC BY 4.0
453.247,-0.00239981,gamma,160,PVDF,Mendeley Data: 10.17632/sfbpt6sjb3.1,CC BY 4.0
451.318,-0.00209721,gamma,160,PVDF,Mendeley Data: 10.17632/sfbpt6sjb3.1,CC BY 4.0
449.389,-0.00189789,gamma,160,PVDF,Mendeley Data: 10.17632/sfbpt6sjb3.1,CC BY 4.0
447.461,-0.0015163,gamma,160,PVDF,Mendeley Data: 10.17632/sfbpt6sjb3.1,CC BY 4.0
445.532,-0.000994484,gamma,160,PVDF,Mendeley Data: 10.17632/sfbpt6sjb3.1,CC BY 4.0
443.603,-0.00035729,gamma,160,PVDF,Mendeley Data: 10.17632/sfbpt6sjb3.1,CC BY 4.0
441.675,0.000341854,gamma,160,PVDF,Mendeley Data: 10.17632/sfbpt6sjb3.1,CC BY 4.0
439.746,0.00114706,gamma,160,PVDF,Mendeley Data: 10.17632/sfbpt6sjb3.1,CC BY 4.0
437.817,0.00201152,gamma,160,PVDF,Mendeley Data: 10.17632/sfbpt6sjb3.1,CC BY 4.0
435.8885,0.0027507,gamma,160,PVDF,Mendeley Data: 10.17632/sfbpt6sjb3.1,CC BY 4.0
433.96,0.00313208,gamma,160,PVDF,Mendeley Data: 10.17632/sfbpt6sjb3.1,CC BY 4.0
432.031,0.0030758,gamma,160,PVDF,Mendeley Data: 10.17632/sfbpt6sjb3.1,CC BY 4.0
430.102,0.00267558,gamma,160,PVDF,Mendeley Data: 10.17632/sfbpt6sjb3.1,CC BY 4.0
428.174,0.00198621,gamma,160,PVDF,Mendeley Data: 10.17632/sfbpt6sjb3.1,CC BY 4.0
426.245,0.00105451,gamma,160,PVDF,Mendeley Data: 10.17632/sfbpt6sjb3.1,CC BY 4.0
424.316,0.00012614,gamma,160,PVDF,Mendeley Data: 10.17632/sfbpt6sjb3.1,CC BY 4.0
422.388,-0.000546598,gamma,160,PVDF,Mendeley Data: 10.17632/sfbpt6sjb3.1,CC BY 4.0
420.459,-0.000974867,gamma,160,PVDF,Mendeley Data: 10.17632/sfbpt6sjb3.1,CC BY 4.0
418.53,-0.00124308,gamma,160,PVDF,Mendeley Data: 10.17632/sfbpt6sjb3.1,CC BY 4.0
416.6014,-0.00135579,gamma,160,PVDF,Mendeley Data: 10.17632/sfbpt6sjb3.1,CC BY 4.0
414.673,-0.00135441,gamma,160,PVDF,Mendeley Data: 10.17632/sfbpt6sjb3.1,CC BY 4.0
412.744,-0.0012918,gamma,160,PVDF,Mendeley Data: 10.17632/sfbpt6sjb3.1,CC BY 4.0
410.815,-0.00117091,gamma,160,PVDF,Mendeley Data: 10.17632/sfbpt6sjb3.1,CC BY 4.0
408.887,-0.000938544,gamma,160,PVDF,Mendeley Data: 10.17632/sfbpt6sjb3.1,CC BY 4.0
406.958,-0.00053418,gamma,160,PVDF,Mendeley Data: 10.17632/sfbpt6sjb3.1,CC BY 4.0
405.029,-9.29007e-05,gamma,160,PVDF,Mendeley Data: 10.17632/sfbpt6sjb3.1,CC BY 4.0
403.1,7.4206e-05,gamma,160,PVDF,Mendeley Data: 10.17632/sfbpt6sjb3.1,CC BY 4.0
401.172,4.02682e-05,gamma,160,PVDF,Mendeley Data: 10.17632/sfbpt6sjb3.1,CC BY 4.0
399.243,0.0,gamma,160,PVDF,Mendeley Data: 10.17632/sfbpt6sjb3.1,CC BY 4.0